VERSION:    3.1A
ELEMENTS:   1
DATE:       
CHANNELS:   2112
ROIS:       23 
REAL_TIME:  0.000000 
LIVE_TIME:  0.000000 
CAL_OFFSET: 1.779794e+00 
CAL_SLOPE: 9.771836e-03 
CAL_QUAD: 0.000000e+00 
WAVELENGTH: 0.310000 
ROI_0_LEFT:  247 
ROI_0_RIGHT:  264 
ROI_0_LABEL:  LaB6 100& 
ROI_1_LEFT:  428 
ROI_1_RIGHT:  445 
ROI_1_LABEL:  LaB6 110& 
ROI_2_LEFT:  568 
ROI_2_RIGHT:  585 
ROI_2_LABEL:  LaB6 111& 
ROI_3_LEFT:  685 
ROI_3_RIGHT:  702 
ROI_3_LABEL:  LaB6 200& 
ROI_4_LEFT:  789 
ROI_4_RIGHT:  806 
ROI_4_LABEL:  LaB6 210& 
ROI_5_LEFT:  882 
ROI_5_RIGHT:  899 
ROI_5_LABEL:  LaB6 211& 
ROI_6_LEFT:  1049 
ROI_6_RIGHT:  1066 
ROI_6_LABEL:  LaB6 220& 
ROI_7_LEFT:  1124 
ROI_7_RIGHT:  1141 
ROI_7_LABEL:  LaB6 300& 
ROI_8_LEFT:  1196 
ROI_8_RIGHT:  1213 
ROI_8_LABEL:  LaB6 310& 
ROI_9_LEFT:  1263 
ROI_9_RIGHT:  1280 
ROI_9_LABEL:  LaB6 311& 
ROI_10_LEFT:  1328 
ROI_10_RIGHT:  1345 
ROI_10_LABEL:  LaB6 222& 
ROI_11_LEFT:  1391 
ROI_11_RIGHT:  1408 
ROI_11_LABEL:  LaB6 320& 
ROI_12_LEFT:  1451 
ROI_12_RIGHT:  1468 
ROI_12_LABEL:  LaB6 321& 
ROI_13_LEFT:  1565 
ROI_13_RIGHT:  1582 
ROI_13_LABEL:  LaB6 400& 
ROI_14_LEFT:  1620 
ROI_14_RIGHT:  1637 
ROI_14_LABEL:  LaB6 410& 
ROI_15_LEFT:  1672 
ROI_15_RIGHT:  1689 
ROI_15_LABEL:  LaB6 411& 
ROI_16_LEFT:  1724 
ROI_16_RIGHT:  1741 
ROI_16_LABEL:  LaB6 331& 
ROI_17_LEFT:  1774 
ROI_17_RIGHT:  1791 
ROI_17_LABEL:  LaB6 420& 
ROI_18_LEFT:  1823 
ROI_18_RIGHT:  1840 
ROI_18_LABEL:  LaB6 421& 
ROI_19_LEFT:  1871 
ROI_19_RIGHT:  1888 
ROI_19_LABEL:  LaB6 332& 
ROI_20_LEFT:  1964 
ROI_20_RIGHT:  1981 
ROI_20_LABEL:  LaB6 422& 
ROI_21_LEFT:  2009 
ROI_21_RIGHT:  2026 
ROI_21_LABEL:  LaB6 500& 
ROI_22_LEFT:  2053 
ROI_22_RIGHT:  2070 
ROI_22_LABEL:  LaB6 510& 
DATA: 
737.313480 
751.686890 
735.895260 
733.707150 
725.096370 
733.848880 
735.200930 
738.139890 
739.786190 
741.631350 
744.561950 
748.592830 
753.439270 
757.865540 
761.352360 
765.054440 
769.499570 
772.326170 
772.442260 
772.941100 
771.993770 
770.545900 
770.602420 
771.627810 
773.113710 
774.065490 
774.675540 
774.076600 
774.345090 
774.228330 
774.279420 
774.199520 
775.096310 
775.751280 
775.855470 
776.067500 
776.392270 
776.333620 
776.710940 
777.490170 
777.950560 
777.611690 
778.531920 
779.017760 
779.788570 
780.160890 
780.264650 
780.987000 
781.548460 
782.058840 
781.347290 
780.545230 
778.799930 
777.030820 
775.436830 
774.627380 
773.485350 
772.551510 
771.734310 
770.937500 
770.546940 
770.530760 
769.700320 
768.964480 
768.930050 
768.093510 
767.610350 
766.194820 
765.710020 
765.500730 
765.626650 
764.326900 
763.874510 
763.131590 
762.431760 
761.465390 
760.677190 
759.928410 
758.957820 
757.467350 
756.858030 
756.492550 
755.443910 
754.874450 
753.896180 
753.043820 
751.904970 
751.586430 
750.214970 
749.322510 
747.423770 
745.962400 
744.337770 
742.611080 
741.118710 
740.682680 
739.420350 
738.588130 
736.597470 
735.520940 
733.860230 
732.790830 
731.411010 
730.883000 
729.596620 
728.703800 
726.935120 
725.461730 
723.126100 
721.967100 
721.263120 
721.890690 
721.267760 
720.419430 
718.940980 
717.250490 
715.033510 
713.531920 
712.423650 
710.912050 
709.854680 
708.506290 
707.295900 
706.281310 
705.550900 
705.128360 
704.605590 
704.151790 
703.870240 
703.453920 
702.429320 
700.774780 
699.526060 
698.117920 
697.407710 
695.807740 
694.683230 
693.836670 
693.391480 
692.819030 
691.549380 
691.160100 
690.828550 
689.803160 
688.363650 
686.631160 
684.803340 
682.199400 
680.353580 
678.037230 
676.855410 
676.007020 
675.777100 
674.686710 
673.181580 
671.975160 
670.843930 
669.217160 
667.573550 
665.663640 
665.351200 
665.319760 
665.270810 
664.745180 
663.978940 
663.587220 
662.934570 
661.918820 
660.814760 
659.362180 
658.240110 
656.979060 
656.656620 
655.417050 
654.269470 
652.823360 
651.781680 
650.797300 
649.552670 
648.469730 
647.257140 
646.860110 
646.462400 
646.232730 
645.347290 
644.586910 
643.887080 
643.052550 
642.326050 
641.738040 
641.403380 
641.263180 
640.842770 
639.745480 
638.466610 
637.902470 
637.075380 
637.108340 
636.877500 
636.847960 
637.076350 
637.037960 
635.984500 
633.948550 
632.270320 
630.751530 
630.038820 
630.134460 
630.124450 
629.109560 
629.019780 
628.719300 
627.995120 
627.482970 
627.050290 
627.059630 
626.439450 
626.729610 
626.430420 
626.687620 
626.452510 
625.868650 
624.842590 
623.693180 
623.300660 
622.531920 
622.513790 
621.878540 
621.895320 
621.446720 
621.089480 
620.059020 
619.568970 
619.014160 
618.630310 
619.256530 
620.359190 
621.640010 
622.739320 
624.484310 
626.939510 
630.133730 
633.596800 
636.963010 
640.934690 
646.870670 
655.435970 
667.254460 
685.284060 
715.436710 
772.830200 
867.584780 
1083.128300 
1338.884800 
1574.003500 
1668.420300 
1599.935200 
1423.797200 
1206.282000 
995.853580 
826.831790 
734.414670 
690.893010 
664.920290 
647.048890 
635.018800 
625.768550 
619.507690 
614.919250 
611.542850 
608.759700 
605.570560 
603.162840 
600.377500 
598.480770 
597.104370 
596.324280 
594.489620 
593.024480 
591.839720 
591.146550 
589.915340 
588.634160 
587.013120 
585.406190 
584.144170 
583.185420 
582.983580 
582.725830 
582.196350 
581.228880 
580.898250 
579.943910 
579.458680 
578.668520 
578.051390 
577.807370 
577.308350 
576.906430 
576.170230 
575.477290 
574.774660 
573.679080 
572.601990 
571.804990 
571.816530 
571.523800 
571.817320 
571.370790 
571.142460 
570.643370 
570.523560 
569.942260 
568.730710 
567.677120 
566.653930 
566.462650 
565.759520 
565.619630 
565.725950 
565.503970 
565.536320 
565.114140 
564.493960 
563.524960 
563.393070 
562.470090 
561.851810 
560.633000 
560.570560 
560.283330 
560.726260 
560.060730 
560.049380 
559.137940 
558.603760 
558.288820 
557.900020 
557.918820 
557.228450 
556.740970 
556.208190 
556.439640 
556.316710 
556.412960 
556.211240 
555.875310 
555.081970 
554.317870 
553.934750 
553.768800 
553.901730 
554.306520 
554.887760 
554.741760 
554.542660 
554.081790 
554.332210 
554.568300 
554.684880 
555.470280 
555.110170 
554.044250 
552.637820 
551.218320 
549.864070 
548.994630 
548.704350 
548.301390 
548.262020 
548.059080 
548.143550 
547.783630 
547.347600 
546.684630 
546.312990 
546.125850 
546.141360 
546.057310 
545.825010 
545.659480 
545.068910 
544.738340 
544.549990 
544.090580 
543.737850 
543.794490 
544.070010 
543.868900 
543.662110 
543.782100 
544.229250 
544.722840 
545.033080 
544.958740 
544.855160 
545.050720 
545.458130 
545.860960 
545.875240 
545.511660 
545.180850 
544.649900 
544.327510 
544.506530 
545.222470 
545.851380 
546.399840 
547.143370 
547.960750 
548.759580 
549.511840 
551.019170 
552.318540 
553.855770 
555.260440 
557.032650 
558.781560 
561.627080 
564.963130 
568.988710 
574.595210 
581.988710 
590.781070 
601.333800 
614.177860 
630.609070 
651.889100 
713.881650 
822.299380 
966.578370 
1105.752000 
1238.736200 
1397.192700 
1600.937400 
1824.886600 
1955.196900 
1957.292200 
1826.601000 
1597.450100 
1356.079300 
1137.161100 
946.247680 
812.838200 
721.416200 
670.953310 
641.197570 
619.491940 
602.943730 
589.481020 
578.811520 
569.567750 
562.046080 
555.853090 
550.631040 
546.506160 
543.113530 
540.457030 
537.629940 
535.735230 
533.755430 
532.017460 
530.289730 
529.203490 
527.969670 
527.097960 
525.758850 
524.652220 
523.590030 
522.406310 
521.304630 
520.046080 
519.250550 
518.272030 
517.514950 
516.603940 
516.005550 
514.928590 
514.210570 
513.588010 
513.127380 
512.867000 
512.992740 
512.502990 
512.016720 
511.417050 
510.893370 
510.333070 
510.097020 
509.648070 
509.019070 
508.813690 
508.679990 
508.161040 
507.457730 
506.663120 
506.265560 
505.718930 
505.276180 
504.506620 
504.255310 
503.694950 
503.532870 
503.149960 
503.114620 
502.638980 
502.104310 
501.961820 
501.804230 
501.506530 
501.346740 
501.093290 
500.715060 
500.279270 
500.210880 
499.661220 
499.238040 
498.738160 
498.333890 
497.916140 
497.942780 
497.568660 
497.676850 
497.655150 
497.330870 
497.048490 
497.097960 
496.773530 
496.488100 
496.219480 
495.938870 
496.233000 
496.682860 
496.943180 
496.745510 
496.329560 
495.874450 
495.634670 
496.053500 
495.977420 
495.954410 
495.886080 
495.950070 
495.874480 
495.759160 
495.754030 
495.583620 
495.954500 
496.619290 
497.442290 
498.141750 
498.227480 
497.810150 
498.051210 
498.865660 
499.813390 
500.937470 
501.874820 
503.118650 
504.575620 
506.154050 
508.474790 
512.001400 
515.749080 
520.345830 
525.821840 
533.425420 
543.773930 
558.397890 
579.935180 
609.357360 
656.083250 
715.526060 
804.650210 
888.593020 
942.954830 
946.329830 
907.725160 
817.401860 
732.236510 
666.467830 
615.784730 
586.001400 
564.188780 
549.424500 
537.743770 
529.226870 
522.399110 
516.658200 
512.054690 
508.577610 
505.262850 
502.262510 
499.732790 
497.717320 
495.669010 
494.176670 
492.948910 
492.208920 
491.648220 
491.002870 
490.357820 
489.770230 
489.369380 
489.043850 
488.776000 
488.307590 
487.432770 
486.570620 
485.936100 
485.156860 
484.761440 
484.467860 
484.662080 
484.897670 
485.150760 
485.165370 
484.975770 
484.959050 
484.897740 
484.907750 
484.481020 
483.917600 
483.620240 
483.560730 
483.936520 
484.142490 
484.391110 
484.318660 
484.349950 
483.991580 
483.575840 
483.485320 
483.271420 
483.378140 
483.443240 
483.346100 
483.077940 
483.168490 
483.192690 
483.588040 
483.954350 
483.962920 
483.939730 
483.946870 
484.028870 
484.321660 
484.303620 
484.034940 
484.087740 
484.529080 
485.000820 
485.349430 
485.828430 
486.157960 
486.685880 
487.361240 
488.167390 
488.340030 
488.301880 
488.160800 
488.176700 
487.970920 
487.716770 
487.479860 
487.112950 
487.433410 
487.175260 
487.432100 
487.236570 
487.334320 
487.839390 
488.284000 
488.857060 
489.057890 
489.617490 
490.186580 
491.491150 
492.979980 
494.243620 
494.859070 
495.944000 
497.521000 
500.403380 
504.294280 
509.658840 
516.299010 
526.143620 
540.762880 
563.038330 
595.235470 
631.413270 
665.516360 
679.484800 
668.581420 
638.075200 
601.814450 
568.187010 
544.442320 
528.739560 
518.390620 
511.483830 
506.628140 
503.410490 
500.890750 
499.189270 
497.965120 
497.238650 
496.518160 
496.187290 
495.988950 
495.810580 
495.069640 
494.344390 
493.005550 
492.104950 
491.019470 
490.020940 
489.254520 
488.796910 
488.260590 
487.726750 
487.097410 
486.669710 
486.168300 
485.629330 
484.817600 
483.831450 
482.780940 
481.935790 
481.088530 
480.579960 
480.573820 
480.626740 
480.769350 
480.635500 
480.275630 
479.804470 
479.473940 
479.461910 
479.314820 
479.497160 
479.559540 
479.470520 
478.968510 
478.473420 
477.966920 
477.618930 
477.221770 
476.918090 
476.786350 
476.580320 
476.445680 
476.467830 
476.831600 
476.922640 
476.919800 
476.770900 
476.247470 
476.056000 
476.275480 
476.672490 
477.123660 
477.340060 
477.668790 
477.803800 
478.156920 
478.507930 
478.968750 
479.646550 
480.541560 
481.717620 
482.743380 
483.903440 
484.578770 
485.493130 
486.717960 
488.226870 
489.408290 
491.135350 
493.562960 
496.728030 
500.228820 
504.825380 
510.140530 
530.564760 
557.821530 
586.893550 
608.776370 
637.610900 
683.130370 
742.075500 
816.042790 
920.253110 
1051.152200 
1179.685300 
1270.621600 
1275.872600 
1216.985200 
1075.930100 
947.121400 
814.627810 
730.907650 
668.401490 
609.099610 
570.654660 
539.504940 
525.000550 
515.386720 
507.627170 
501.042660 
495.480960 
490.931760 
487.846190 
484.698640 
482.418370 
480.150670 
478.517880 
476.970730 
475.282380 
473.715550 
472.430050 
471.343780 
470.437160 
469.998200 
469.719790 
469.118680 
468.188930 
467.439540 
466.751220 
465.878780 
465.221860 
464.663570 
463.975950 
463.543400 
462.986600 
462.596650 
462.236300 
462.136780 
461.912260 
461.667820 
461.405400 
461.267580 
460.947780 
460.690980 
460.652040 
460.750060 
460.914430 
461.164920 
461.234100 
461.358490 
461.014590 
460.771300 
460.318120 
460.039310 
459.696560 
459.457460 
459.055910 
458.779050 
458.812260 
458.841060 
459.089420 
459.549530 
459.988740 
460.274080 
460.843750 
461.230100 
461.653350 
462.120270 
462.535710 
463.437470 
464.746280 
466.112400 
467.238310 
468.642910 
470.127870 
471.767580 
473.934630 
476.711150 
480.079740 
484.261290 
490.179570 
497.520050 
508.043550 
521.615050 
542.774780 
572.203670 
617.013670 
669.458440 
719.197140 
752.593080 
750.296880 
711.706180 
659.899720 
605.570620 
562.902220 
534.843990 
515.325200 
503.303530 
494.428830 
487.508060 
482.066350 
477.661130 
474.040310 
471.074250 
468.826020 
466.453000 
464.566350 
462.845280 
461.430180 
460.361970 
459.329830 
458.325560 
457.123570 
456.177800 
455.767210 
455.502170 
455.364040 
454.977110 
454.728330 
454.352260 
454.097470 
453.869630 
453.642970 
453.292480 
453.113770 
452.878020 
452.711850 
452.433260 
452.121700 
451.956880 
451.552280 
451.113490 
450.960750 
450.688320 
450.726930 
450.435460 
450.518890 
450.352360 
450.421660 
450.241640 
450.274020 
450.327820 
450.029050 
449.537660 
449.182680 
448.745210 
448.364230 
448.077580 
447.843960 
447.620120 
447.538210 
447.309020 
447.019650 
446.990390 
446.955290 
447.188140 
447.468600 
447.430570 
447.241880 
446.738800 
446.589390 
446.172150 
446.266020 
446.047640 
446.296420 
446.543430 
446.939580 
446.966370 
446.997130 
446.696870 
446.395780 
446.290990 
446.364350 
446.406070 
446.450130 
446.795560 
447.211460 
447.520020 
447.655150 
447.514160 
447.551760 
446.986660 
446.397770 
445.740970 
445.656400 
445.701170 
445.747740 
445.659820 
445.592250 
445.346250 
445.097110 
444.991820 
445.127530 
445.445920 
445.967740 
446.235320 
446.236910 
445.961150 
445.455660 
444.956240 
445.112920 
445.476470 
445.658940 
445.586180 
445.521180 
445.653990 
445.604800 
445.640690 
445.474550 
445.522310 
445.477140 
445.699490 
445.354640 
445.327970 
444.961400 
445.098630 
444.969850 
445.207760 
445.307830 
445.770510 
446.095180 
446.289760 
446.131870 
446.251370 
446.241030 
446.321750 
446.192200 
446.264340 
446.383700 
446.605440 
446.933900 
447.540310 
447.842830 
448.214360 
448.978150 
449.939910 
450.679570 
451.261960 
452.068970 
452.871150 
454.017300 
455.699520 
457.707700 
459.716640 
462.117160 
465.444180 
470.149720 
494.656650 
517.127990 
557.197390 
590.125240 
617.038450 
638.209110 
650.887150 
666.858150 
677.023740 
678.834780 
671.731630 
657.589360 
643.460330 
612.041380 
594.216190 
558.402950 
552.651490 
526.968990 
517.066280 
489.372440 
476.747990 
462.838010 
459.858310 
457.418790 
455.627470 
454.279420 
453.076510 
452.128140 
451.089570 
450.384980 
449.807620 
449.310520 
448.817170 
448.292270 
448.005280 
447.608150 
447.346530 
446.831240 
446.603550 
446.267400 
446.198580 
445.892000 
445.794530 
445.804750 
445.943390 
446.244660 
446.298550 
446.220790 
445.897400 
445.831510 
446.037230 
446.181610 
446.559970 
446.889710 
447.275090 
447.442960 
447.758880 
448.192230 
448.840550 
449.306400 
449.781560 
450.518070 
451.938960 
453.473510 
455.070500 
456.537990 
458.209780 
459.945740 
461.650150 
463.841430 
466.636470 
470.408330 
474.953830 
480.739990 
488.079860 
496.712550 
508.993770 
523.696840 
546.203120 
574.576290 
614.014220 
667.972840 
723.918820 
778.249940 
808.049440 
802.602910 
761.391420 
702.750550 
640.579100 
592.670290 
555.311400 
531.065490 
513.334470 
500.593510 
491.166500 
483.936680 
478.231900 
473.516910 
469.703860 
466.460570 
463.571900 
461.033050 
458.890960 
457.003420 
455.629180 
454.231380 
453.250700 
452.185880 
451.150020 
449.924100 
449.178530 
448.529080 
447.948940 
447.351260 
446.830540 
446.386540 
445.901760 
445.415100 
445.029660 
444.968570 
445.021940 
445.106110 
445.281490 
445.367550 
445.353700 
445.293120 
445.214020 
445.378450 
445.941380 
446.595640 
446.922180 
447.168490 
447.354520 
447.471220 
447.628390 
448.441860 
449.418490 
450.817440 
452.279600 
453.817500 
455.412660 
457.196200 
459.819370 
463.124480 
467.072300 
471.900880 
478.326320 
486.075160 
497.651980 
524.637940 
557.706360 
618.098880 
666.401430 
725.598690 
776.284120 
811.800780 
814.072750 
778.815920 
714.974300 
632.981870 
577.649960 
536.634340 
513.406190 
499.007170 
488.668760 
480.459750 
474.275050 
469.122740 
465.080380 
461.738890 
459.081420 
456.402370 
454.042820 
452.153840 
450.749880 
449.769810 
448.752780 
447.728120 
446.942720 
446.270110 
445.886050 
445.398830 
444.772130 
444.513370 
444.323180 
443.879060 
443.639950 
443.764340 
443.658330 
443.650630 
443.236390 
443.132690 
442.866300 
442.768220 
442.661440 
442.519290 
442.535460 
442.983460 
443.126920 
443.203310 
443.229800 
443.395200 
443.717530 
443.935730 
444.166380 
444.521270 
445.125340 
446.229280 
447.331540 
448.647520 
450.104520 
451.519040 
453.005860 
454.682460 
457.254520 
460.536680 
465.538330 
471.992770 
481.164700 
492.490480 
508.816560 
527.575560 
548.194520 
563.347110 
567.814760 
558.182130 
539.975710 
518.070980 
499.016820 
484.293030 
474.366910 
467.451080 
462.866420 
459.294340 
456.176300 
453.552060 
451.391330 
449.603940 
448.168880 
447.000850 
446.047580 
444.887820 
443.813420 
443.269350 
443.007600 
442.553770 
442.022250 
441.378080 
440.785100 
440.190950 
440.014980 
439.823580 
439.645170 
439.352110 
439.319920 
439.194240 
439.378230 
439.464970 
439.453280 
439.069000 
438.651250 
438.186490 
437.817260 
437.755950 
437.937040 
438.004240 
438.084380 
438.034880 
437.969060 
437.968630 
438.315460 
438.384670 
438.521330 
438.813870 
439.119170 
439.328060 
439.663020 
440.055850 
440.676540 
441.034730 
441.409910 
441.888150 
442.677920 
443.926570 
445.224370 
447.110230 
448.884220 
450.625700 
451.401890 
451.757420 
450.612060 
448.934020 
446.670870 
444.819850 
443.353030 
442.594420 
442.037810 
441.367280 
440.722170 
440.131530 
439.970760 
439.917720 
439.963810 
439.731320 
439.417660 
439.218230 
439.103850 
439.250610 
439.308500 
439.550660 
439.722500 
439.718350 
439.561370 
439.428470 
439.348690 
439.336980 
439.549380 
439.704990 
439.818820 
439.902560 
440.138850 
440.121980 
440.435150 
440.687010 
441.021090 
441.252080 
441.510740 
441.772740 
442.159520 
442.660060 
443.287780 
443.998140 
445.053590 
446.284270 
447.370760 
448.498810 
449.804780 
451.229490 
453.124760 
455.633640 
458.935970 
463.000210 
468.762600 
490.106660 
529.181150 
568.114930 
590.060300 
607.945800 
636.265140 
659.419560 
667.978640 
668.813230 
673.019350 
658.125610 
619.940310 
563.112550 
521.072330 
488.659790 
477.293120 
469.438450 
463.485990 
459.191530 
455.948610 
453.174100 
451.047420 
449.316960 
447.890750 
446.576510 
445.324770 
444.248380 
443.037410 
441.993840 
440.953220 
440.397460 
440.000890 
439.860410 
439.930760 
440.042850 
440.208620 
440.240020 
440.308750 
440.345920 
440.202700 
440.337920 
440.512820 
440.589970 
440.716830 
441.091130 
441.452970 
441.886080 
442.014250 
442.709080 
443.701970 
444.893400 
446.259400 
447.515530 
449.015380 
450.680790 
452.865940 
455.304290 
458.069340 
461.598880 
465.716250 
471.175930 
478.239230 
488.168760 
501.087620 
521.169490 
546.900630 
596.361630 
639.831540 
661.709660 
650.838560 
623.024540 
573.081600 
535.745790 
508.665500 
490.521390 
480.265350 
472.381410 
466.753540 
461.960880 
458.471710 
455.534420 
453.190030 
451.107420 
449.196170 
447.541960 
446.004180 
444.505830 
443.343810 
442.557250 
442.020110 
441.433720 
440.643250 
439.948490 
439.343570 
438.857640 
438.406890 
437.869110 
437.395290 
436.645230 
436.316620 
435.883820 
435.919040 
436.026980 
436.073940 
435.897580 
435.804080 
435.452120 
435.211300 
434.833710 
434.675990 
434.593960 
434.430630 
434.359740 
434.363530 
434.323610 
434.312560 
434.185760 
434.086460 
434.292420 
434.120150 
433.897060 
433.722320 
433.319210 
432.960720 
432.793270 
432.588070 
432.728360 
432.810150 
433.017240 
433.000610 
432.984920 
432.804350 
432.767820 
432.784270 
432.956300 
433.075840 
433.187620 
432.947050 
433.061490 
433.112670 
433.296360 
433.313930 
433.231810 
433.182920 
433.105990 
433.206270 
433.227420 
433.360870 
433.356540 
433.273620 
433.230440 
433.238950 
433.451510 
433.661830 
433.919250 
434.122440 
434.342220 
434.203160 
434.031280 
433.813080 
434.138000 
434.458980 
434.927150 
435.165590 
435.599760 
436.133670 
436.742070 
437.350430 
437.977970 
438.682770 
439.547910 
440.379270 
441.535130 
443.342130 
445.842040 
449.115260 
454.554570 
461.109470 
491.207000 
511.539670 
539.636050 
545.861330 
557.902890 
548.278320 
538.035710 
518.178650 
499.094210 
469.719300 
456.631900 
451.253600 
447.419490 
445.357450 
443.897920 
442.694950 
441.694850 
441.013490 
440.347660 
439.622130 
438.880830 
438.356750 
437.870640 
437.575010 
437.328220 
436.979740 
436.592560 
436.478450 
436.253940 
436.343350 
436.629000 
437.022220 
437.528530 
437.845980 
438.037170 
438.090640 
438.342410 
438.895480 
440.095830 
440.997620 
441.587430 
442.251280 
443.267460 
444.447480 
445.638000 
447.239530 
448.900970 
450.795750 
452.862730 
455.790710 
459.439670 
464.555420 
471.181000 
480.730350 
494.068450 
514.290160 
538.002500 
562.434690 
574.665040 
576.106080 
558.261780 
536.382510 
513.993290 
495.540500 
481.292020 
472.109160 
465.113400 
460.317630 
456.419860 
453.583830 
451.428560 
449.591920 
448.236110 
446.783260 
445.424410 
444.304020 
443.386720 
442.677920 
442.427310 
441.934810 
441.569700 
441.197240 
440.904110 
440.703860 
440.563630 
440.286650 
440.065160 
440.259610 
440.390260 
440.501430 
440.901280 
441.486630 
442.059910 
442.458500 
443.379180 
444.311980 
445.382660 
446.533600 
447.740570 
449.024960 
450.368960 
452.404880 
455.255650 
458.898770 
463.727630 
470.258730 
479.619720 
492.330080 
512.876160 
537.782710 
564.858640 
585.313840 
589.697270 
581.507930 
559.385990 
525.394710 
505.356260 
483.079040 
472.027310 
464.011960 
458.851230 
455.374910 
452.733310 
450.471410 
448.465880 
446.695310 
444.982120 
443.653260 
442.766910 
442.147460 
441.523380 
440.888090 
440.305880 
439.721980 
439.360140 
439.223630 
438.844880 
438.617030 
438.281100 
438.123350 
437.920930 
437.809750 
437.644560 
437.606840 
437.601560 
437.781250 
437.874630 
438.230870 
438.567750 
439.202610 
440.007260 
440.936710 
441.872960 
442.913480 
444.282810 
445.530460 
447.556640 
450.419980 
454.731140 
460.457150 
467.029970 
474.386570 
479.606290 
482.041720 
479.981660 
473.039370 
465.882810 
457.501650 
452.120330 
448.091490 
445.258540 
443.051570 
441.557370 
440.553650 
439.800960 
439.220490 
438.732390 
438.239960 
437.869140 
437.512360 
437.207000 
437.059840 
436.798220 
436.666780 
436.675600 
436.946960 
437.337220 
437.522370 
437.529600 
437.349060 
437.564330 
437.888280 
438.110500 
438.371550 
438.653230 
438.948790 
439.241460 
439.537720 
440.091740 
440.749330 
441.670010 
442.893460 
444.235230 
445.714480 
447.652440 
449.792940 
453.240970 
457.018740 
464.088990 
470.521390 
484.480320 
493.786250 
507.906980 
511.442720 
506.016630 
491.377290 
481.207610 
469.546690 
462.414520 
456.823460 
453.279300 
450.322880 
448.327820 
446.583500 
445.351900 
444.333770 
443.625640 
442.990170 
442.647890 
442.283080 
441.878780 
441.388430 
441.123750 
441.011350 
440.960720 
441.231380 
441.701540 
441.849790 
442.061770 
442.212590 
442.419950 
442.780270 
443.509800 
444.331630 
445.027860 
445.792790 
446.659450 
447.627040 
448.658940 
450.108370 
451.893370 
453.894900 
456.167210 
459.395230 
463.458770 
468.953160 
476.240940 
486.522800 
499.828250 
521.460270 
560.892820 
580.854430 
590.740970 
576.133790 
551.448610 
520.932250 
500.171810 
484.009400 
474.111110 
467.434360 
463.014340 
459.863160 
457.354580 
455.210170 
453.382780 
451.755740 
450.185910 
448.973140 
447.877170 
446.911500 
446.074340 
445.215390 
444.579990 
444.071470 
443.615970 
443.046140 
442.560120 
442.228490 
442.171940 
442.235750 
442.317870 
442.156130 
442.041750 
442.104280 
442.182740 
442.620760 
443.238250 
443.779600 
444.489840 
445.275300 
446.076540 
447.239750 
448.681030 
450.486150 
452.491180 
455.017490 
457.850830 
461.403290 
464.938450 
467.547580 
467.931240 
466.292970 
462.851100 
459.102290 
455.680880 
452.674800 
450.462800 
448.579590 
447.103090 
445.684630 
444.500180 
443.468570 
442.653320 
441.825320 
441.390260 
440.933380 
440.550450 
440.354860 
440.229280 
440.093480 
439.772060 
439.432460 
439.259370 
439.126040 
438.932800 
438.867680 
438.505680 
438.135010 
437.786410 
437.477230 
437.234220 
437.404050 
437.410710 
437.396390 
437.495360 
437.424960 
437.201050 
436.981780 
436.982150 
437.243010 
437.372470 
437.232210 
437.087890 
437.190580 
437.380370 
437.421720 
437.266080 
437.144100 
436.997920 
437.026640 
436.793820 
436.907380 
436.996400 
437.184810 
437.360200 
437.454380 
437.490230 
437.629430 
437.614170 
437.593020 
437.466740 
437.482180 
437.623720 
437.953000 
438.271910 
438.465150 
438.333590 
438.208130 
438.159550 
438.484530 
438.790340 
439.299260 
439.580510 
439.705690 
439.972600 
440.072630 
440.356480 
440.521390 
440.900700 
441.261290 
441.693080 
442.268980 
442.952420 
443.417880 
444.194820 
445.199340 
446.277040 
447.715030 
449.527560 
451.746090 
454.617710 
458.133090 
460.906190 
462.634490 
461.651790 
459.579710 
455.265440 
452.608920 
449.837710 
447.808930 
446.131590 
445.023990 
444.203430 
443.603580 
443.399720 
443.206700 
443.121430 
442.813320 
442.832400 
442.650270 
442.466710 
442.265560 
441.989620 
441.931060 
442.091090 
442.371980 
442.494870 
442.466980 
442.425260 
442.730380 
442.977780 
443.280760 
443.602230 
443.900300 
444.065280 
444.472810 
445.018430 
445.997620 
447.136050 
448.124080 
449.554350 
451.257480 
453.478120 
456.552150 
460.314940 
464.278690 
468.439270 
470.715000 
470.971650 
467.784850 
463.334900 
458.969360 
455.412510 
452.830720 
450.965790 
449.810210 
449.070010 
448.634950 
448.495120 
448.202180 
448.047760 
447.794370 
447.731690 
447.699860 
447.735530 
447.883390 
447.932980 
448.074070 
448.328220 
448.749150 
449.151920 
449.786380 
450.440800 
451.216670 
452.129120 
453.184720 
453.947600 
454.862760 
456.289980 
458.154790 
460.468720 
463.184140 
466.465610 
470.815980 
476.482330 
483.351170 
492.619170 
501.497070 
513.557070 
522.313420 
530.722290 
533.408690 
532.961430 
527.631230 
518.958250 
507.791870 
497.445740 
488.624300 
482.446690 
478.042210 
475.339420 
472.872070 
471.019380 
469.526700 
468.471590 
467.744450 
467.355010 
466.925480 
466.468290 
466.248690 
466.122650 
466.204560 
466.277860 
466.551910 
466.786530 
467.218600 
467.535000 
467.843020 
468.216030 
468.355010 
468.615230 
469.100520 
469.689330 
470.660490 
471.701870 
472.713960 
473.476620 
472.895970 
472.481780 
470.423190 
468.835300 
470.721650 
474.830170 
480.844910 
487.013790 
490.904330 
492.672730 
491.833130 
489.721370 
487.701080 
484.957550 
481.807920 
477.677800 
